Sensor Model:   RU-1000-BF0.007
Serial Number:  R10250
Data Format:    4      (Log Ohms/Kelvin)
SetPoint Limit: 100.0      (Kelvin)
Temperature coefficient:  1 (Negative)
Number of Breakpoints:   198

No.   Units      Temperature (K)

1	3.02939	102
2	3.03069	99
3	3.03182	96.5
4	3.03298	94
5	3.03417	91.5
6	3.03541	89
7	3.03669	86.5
8	3.03801	84
9	3.03937	81.5
10	3.04079	79
11	3.04226	76.5
12	3.04378	74
13	3.04537	71.5
14	3.04701	69
15	3.04838	67
16	3.0498	65
17	3.05126	63
18	3.05278	61
19	3.05435	59
20	3.05598	57
21	3.05768	55
22	3.05945	53
23	3.06129	51
24	3.06321	49
25	3.06501	47.2
26	3.06689	45.4
27	3.06885	43.6
28	3.0709	41.8
29	3.07317	39.9
30	3.0753	38.2
31	3.07753	36.5
32	3.07974	34.9
33	3.08205	33.3
34	3.08448	31.7
35	3.08688	30.2
36	3.0894	28.7
37	3.09207	27.2
38	3.0947	25.8
39	3.09728	24.5
40	3.1	23.2
41	3.10289	21.9
42	3.10571	20.7
43	3.10794	19.8
44	3.10975	19.1
45	3.11163	18.4
46	3.11358	17.7
47	3.11547	17.05
48	3.11743	16.4
49	3.11947	15.75
50	3.12144	15.15
51	3.12348	14.55
52	3.12562	13.95
53	3.12766	13.4
54	3.12979	12.85
55	3.13202	12.3
56	3.13413	11.8
57	3.13634	11.3
58	3.13866	10.8
59	3.14109	10.3
60	3.14339	9.85
61	3.1458	9.4
62	3.14834	8.95
63	3.15071	8.55
64	3.15321	8.15
65	3.15584	7.75
66	3.15862	7.35
67	3.16157	6.95
68	3.16431	6.6
69	3.16721	6.25
70	3.17048	5.88
71	3.1737	5.54
72	3.17694	5.22
73	3.18019	4.92
74	3.18367	4.62
75	3.18743	4.32
76	3.19122	4.04
77	3.19427	3.83
78	3.19705	3.65
79	3.2	3.47
80	3.20314	3.29
81	3.2063	3.12
82	3.20968	2.95
83	3.21309	2.79
84	3.21675	2.63
85	3.22044	2.48
86	3.22443	2.33
87	3.22845	2.19
88	3.23282	2.05
89	3.23724	1.92
90	3.24206	1.79
91	3.24693	1.67
92	3.25182	1.56
93	3.25719	1.45
94	3.26313	1.34
95	3.26912	1.24
96	3.27304	1.18
97	3.27616	1.135
98	3.27945	1.09
99	3.28293	1.045
100	3.28661	1
101	3.29009	0.96
102	3.29376	0.92
103	3.29767	0.88
104	3.30182	0.84
105	3.30625	0.8
106	3.31038	0.765
107	3.31478	0.73
108	3.31949	0.695
109	3.32452	0.66
110	3.32994	0.625
111	3.33493	0.595
112	3.34028	0.565
113	3.34603	0.535
114	3.35224	0.505
115	3.35736	0.482
116	3.36209	0.462
117	3.36711	0.442
118	3.37245	0.422
119	3.37756	0.404
120	3.38488	0.38
121	3.39148	0.36
122	3.3986	0.34
123	3.40631	0.32
124	3.41471	0.3
125	3.4239	0.28
126	3.43402	0.26
127	3.44525	0.24
128	3.4578	0.22
129	3.47197	0.2
130	3.47581	0.195
131	3.47978	0.19
132	3.48389	0.185
133	3.48815	0.18
134	3.49257	0.175
135	3.49715	0.17
136	3.50192	0.165
137	3.50688	0.16
138	3.51204	0.155
139	3.51743	0.15
140	3.52305	0.145
141	3.52893	0.14
142	3.53509	0.135
143	3.54155	0.13
144	3.54833	0.125
145	3.55547	0.12
146	3.563	0.115
147	3.57095	0.11
148	3.57937	0.105
149	3.58831	0.1
150	3.59783	0.095
151	3.60799	0.09
152	3.61887	0.085
153	3.63057	0.08
154	3.64319	0.075
155	3.65687	0.07
156	3.67177	0.065
157	3.68811	0.06
158	3.70612	0.055
159	3.72613	0.05
160	3.73479	0.048
161	3.73927	0.047
162	3.74857	0.045
163	3.7534	0.044
164	3.76342	0.042
165	3.774	0.04
166	3.7795	0.039
167	3.78516	0.038
168	3.79099	0.037
169	3.79699	0.036
170	3.80317	0.035
171	3.80954	0.034
172	3.81612	0.033
173	3.8229	0.032
174	3.82992	0.031
175	3.83717	0.03
176	3.84468	0.029
177	3.85245	0.028
178	3.86051	0.027
179	3.86888	0.026
180	3.87757	0.025
181	3.88661	0.024
182	3.89603	0.023
183	3.90584	0.022
184	3.91608	0.021
185	3.92678	0.02
186	3.93798	0.019
187	3.94971	0.018
188	3.96203	0.017
189	3.97497	0.016
190	3.98859	0.015
191	4.00295	0.014
192	4.01809	0.013
193	4.03409	0.012
194	4.05098	0.011
195	4.06882	0.01
196	4.0876	0.009
197	4.10726	0.008
198	4.12759	0.007